acc_x,acc_y,acc_z
0.001,0.014,-0.003
0.001,0.015,-0.002
0.002,0.015,-0.002
0.002,0.015,-0.001
0.002,0.016,-0.0
0.002,0.016,-0.0
0.002,0.016,0.0
0.002,0.016,0.0
0.002,0.016,0.001
0.002,0.016,0.001
0.002,0.016,0.001
0.003,0.016,0.001
0.003,0.016,0.001
0.003,0.015,0.001
0.003,0.015,0.001
0.003,0.015,0.001
0.003,0.015,0.001
0.003,0.015,0.001
0.003,0.015,0.001
0.003,0.014,0.001
0.003,0.014,0.001
0.003,0.016,-0.001
0.003,0.017,-0.002
0.003,0.018,-0.003
0.003,0.018,-0.004
0.003,0.019,-0.005
0.003,0.019,-0.005
0.003,0.02,-0.006
0.003,0.02,-0.006
0.003,0.02,-0.006
0.003,0.02,-0.006
0.003,0.02,-0.006
0.003,0.019,-0.005
0.004,0.019,-0.005
0.004,0.019,-0.004
0.004,0.019,-0.004
0.004,0.018,-0.004
0.004,0.018,-0.004
0.004,0.018,-0.003
0.004,0.018,-0.003
0.004,0.018,-0.003
0.003,0.016,-0.003
0.002,0.015,-0.003
0.001,0.014,-0.002
0.001,0.013,-0.002
0.0,0.013,-0.002
-0.0,0.012,-0.002
-0.0,0.012,-0.002
-0.001,0.011,-0.002
-0.001,0.011,-0.002
-0.001,0.011,-0.002
-0.001,0.011,-0.002
-0.001,0.012,-0.002
-0.001,0.012,-0.002
-0.001,0.012,-0.002
-0.001,0.013,-0.002
-0.001,0.013,-0.002
-0.001,0.013,-0.002
-0.001,0.013,-0.002
-0.001,0.013,-0.002
-0.001,0.013,-0.002
0.003,0.015,-0.001
0.006,0.017,0.001
0.008,0.018,0.002
0.01,0.019,0.002
0.012,0.019,0.003
0.013,0.02,0.003
0.014,0.02,0.004
0.015,0.021,0.004
0.016,0.021,0.004
0.016,0.021,0.005
0.015,0.021,0.003
0.013,0.021,0.001
0.012,0.021,0.0
0.011,0.021,-0.001
0.01,0.021,-0.001
0.01,0.021,-0.002
0.009,0.021,-0.002
0.009,0.021,-0.003
0.008,0.021,-0.003
0.008,0.021,-0.003
0.008,0.02,-0.003
0.008,0.02,-0.002
0.008,0.02,-0.002
0.008,0.02,-0.002
0.008,0.02,-0.001
0.008,0.019,-0.001
0.008,0.019,-0.001
0.008,0.019,-0.001
0.008,0.019,-0.001
0.008,0.019,-0.001
0.007,0.019,-0.002
0.006,0.019,-0.003
0.005,0.019,-0.003
0.004,0.019,-0.004
0.004,0.019,-0.004
0.003,0.019,-0.005
0.003,0.019,-0.005
0.003,0.019,-0.005
0.003,0.019,-0.005
0.003,0.019,-0.005
0.003,0.019,-0.004
0.004,0.019,-0.003
0.004,0.018,-0.003
0.005,0.018,-0.002
0.005,0.018,-0.001
0.005,0.018,-0.001
0.006,0.018,-0.001
0.006,0.018,-0.0
0.006,0.018,-0.0
0.006,0.018,-0.0
0.006,0.02,-0.0
0.006,0.021,-0.0
0.006,0.022,-0.0
0.006,0.023,0.0
0.006,0.023,0.0
0.006,0.024,0.0
0.005,0.024,0.0
0.005,0.025,0.0
0.005,0.025,0.0
0.005,0.025,0.0
0.005,0.024,-0.001
0.005,0.024,-0.002
0.005,0.023,-0.002
0.005,0.023,-0.003
0.005,0.023,-0.003
0.005,0.022,-0.003
0.005,0.022,-0.004
0.005,0.022,-0.004
0.005,0.022,-0.004
0.005,0.022,-0.004
0.005,0.021,-0.003
0.004,0.021,-0.002
0.004,0.02,-0.002
0.004,0.02,-0.001
0.003,0.02,-0.001
0.003,0.02,-0.0
0.003,0.019,-0.0
0.003,0.019,0.0
0.003,0.019,0.0
0.003,0.019,0.001
0.003,0.019,-0.001
0.003,0.018,-0.002
0.003,0.018,-0.003
0.004,0.018,-0.004
0.004,0.017,-0.004
0.004,0.017,-0.005
0.004,0.017,-0.005
0.004,0.017,-0.006
0.004,0.017,-0.006
0.004,0.017,-0.006
0.004,0.017,-0.005
0.004,0.018,-0.005
0.004,0.018,-0.004
0.004,0.018,-0.004
0.004,0.018,-0.004
0.004,0.018,-0.003
0.004,0.019,-0.003
0.004,0.019,-0.003
0.004,0.019,-0.003
0.004,0.019,-0.003
0.004,0.019,-0.003
0.004,0.019,-0.003
0.003,0.019,-0.003
0.003,0.019,-0.003
0.003,0.019,-0.002
0.003,0.019,-0.002
0.003,0.019,-0.002
0.003,0.019,-0.002
0.003,0.019,-0.002
0.003,0.019,-0.002
0.004,0.018,-0.003
0.004,0.017,-0.004
0.004,0.017,-0.005
0.005,0.016,-0.005
0.005,0.016,-0.006
0.005,0.016,-0.006
0.005,0.016,-0.006
0.006,0.015,-0.006
0.006,0.015,-0.007
0.006,0.015,-0.007
0.005,0.015,-0.007
0.004,0.015,-0.006
0.004,0.014,-0.006
0.003,0.014,-0.006
0.003,0.014,-0.006
0.003,0.014,-0.006
0.002,0.014,-0.006
0.002,0.014,-0.006
0.002,0.014,-0.006
0.002,0.014,-0.006
0.002,0.014,-0.005
0.003,0.015,-0.005
0.003,0.016,-0.004
0.004,0.016,-0.004
0.004,0.016,-0.003
0.004,0.017,-0.003
0.004,0.017,-0.003
0.004,0.017,-0.003
0.004,0.017,-0.003
0.004,0.017,-0.003
0.005,0.016,-0.002
0.005,0.016,-0.002
0.005,0.016,-0.002
0.005,0.015,-0.002
0.005,0.015,-0.001
0.005,0.015,-0.001
0.006,0.015,-0.001
0.006,0.014,-0.001
0.006,0.014,-0.001
0.006,0.014,-0.001
0.005,0.015,-0.002
0.005,0.015,-0.002
0.004,0.015,-0.003
0.004,0.016,-0.003
0.004,0.016,-0.003
0.004,0.016,-0.003
0.004,0.016,-0.003
0.004,0.016,-0.004
0.003,0.016,-0.004
0.003,0.017,-0.004
0.004,0.015,-0.003
0.005,0.015,-0.003
0.005,0.014,-0.003
0.006,0.013,-0.002
0.006,0.013,-0.002
0.006,0.012,-0.002
0.006,0.012,-0.002
0.007,0.012,-0.002
0.007,0.012,-0.002
0.007,0.012,-0.002
0.006,0.013,-0.002
0.006,0.015,-0.003
0.006,0.016,-0.003
0.005,0.016,-0.003
0.005,0.017,-0.003
0.005,0.018,-0.003
0.005,0.018,-0.004
0.005,0.018,-0.004
0.005,0.019,-0.004
0.005,0.019,-0.004
0.005,0.019,-0.005
0.005,0.019,-0.005
0.005,0.019,-0.006
0.005,0.019,-0.007
0.005,0.019,-0.007
0.005,0.019,-0.007
0.005,0.019,-0.007
0.005,0.019,-0.008
0.005,0.019,-0.008
0.005,0.019,-0.008
0.005,0.02,-0.009
0.005,0.02,-0.01
0.005,0.02,-0.011
0.005,0.02,-0.012
0.005,0.02,-0.013
0.005,0.02,-0.013
0.005,0.02,-0.013
0.005,0.021,-0.014
0.005,0.021,-0.014
0.005,0.021,-0.014
0.004,0.021,-0.013
0.004,0.021,-0.013
0.004,0.021,-0.012
0.003,0.021,-0.012
0.003,0.021,-0.011
0.003,0.021,-0.011
0.003,0.021,-0.011
0.003,0.021,-0.011
0.003,0.021,-0.01
0.003,0.021,-0.01
0.003,0.02,-0.009
0.003,0.019,-0.008
0.004,0.018,-0.008
0.004,0.018,-0.007
0.004,0.017,-0.006
0.004,0.017,-0.006
0.004,0.016,-0.006
0.004,0.016,-0.006
0.004,0.016,-0.005
0.004,0.016,-0.005
0.004,0.017,-0.004
0.004,0.018,-0.004
0.004,0.019,-0.003
0.004,0.019,-0.003
0.004,0.02,-0.002
0.005,0.02,-0.002
0.005,0.021,-0.002
0.005,0.021,-0.002
0.005,0.021,-0.002
0.005,0.021,-0.002
0.005,0.021,-0.002
0.006,0.021,-0.002
0.006,0.021,-0.002
0.006,0.021,-0.002
0.007,0.021,-0.002
0.007,0.021,-0.002
0.007,0.021,-0.002
0.007,0.021,-0.002
0.007,0.021,-0.002
0.007,0.021,-0.002
0.006,0.02,-0.003
0.004,0.019,-0.003
0.003,0.018,-0.003
0.002,0.018,-0.004
0.002,0.017,-0.004
0.001,0.017,-0.004
0.001,0.016,-0.004
0.001,0.016,-0.004
0.0,0.016,-0.004
0.0,0.016,-0.004
0.001,0.015,-0.004
0.001,0.014,-0.003
0.001,0.014,-0.003
0.002,0.013,-0.002
0.002,0.013,-0.002
0.002,0.013,-0.002
0.002,0.013,-0.001
0.002,0.012,-0.001
0.002,0.012,-0.001
0.003,0.012,-0.001
0.002,0.013,-0.001
0.002,0.013,-0.001
0.002,0.014,-0.0
0.002,0.014,-0.0
0.002,0.014,-0.0
0.002,0.015,-0.0
0.002,0.015,0.0
0.002,0.015,0.0
0.002,0.015,0.0
0.002,0.015,0.0
0.002,0.016,-0.001
0.001,0.016,-0.002
0.001,0.017,-0.002
0.001,0.017,-0.003
0.001,0.017,-0.003
0.001,0.018,-0.004
0.001,0.018,-0.004
0.001,0.018,-0.004
0.001,0.018,-0.004
0.001,0.018,-0.004
0.0,0.018,-0.004
-0.0,0.017,-0.003
-0.001,0.017,-0.003
-0.001,0.016,-0.003
-0.001,0.016,-0.002
-0.001,0.016,-0.002
-0.002,0.016,-0.002
-0.002,0.016,-0.002
-0.002,0.016,-0.002
-0.002,0.015,-0.002
-0.001,0.015,-0.002
0.0,0.015,-0.002
0.001,0.015,-0.003
0.001,0.015,-0.003
0.002,0.015,-0.003
0.002,0.015,-0.003
0.003,0.015,-0.003
0.003,0.015,-0.003
0.003,0.015,-0.003
0.003,0.015,-0.003
0.003,0.015,-0.004
0.003,0.015,-0.004
0.003,0.015,-0.004
0.003,0.015,-0.005
0.003,0.015,-0.005
0.003,0.015,-0.005
0.003,0.015,-0.005
0.003,0.015,-0.005
0.003,0.015,-0.005
0.003,0.015,-0.006
0.002,0.016,-0.004
0.002,0.016,-0.004
0.001,0.016,-0.003
0.001,0.017,-0.002
0.001,0.017,-0.002
0.001,0.017,-0.002
0.001,0.017,-0.001
0.001,0.017,-0.001
0.001,0.017,-0.001
0.0,0.017,-0.001
0.001,0.016,-0.001
0.002,0.015,-0.002
0.003,0.014,-0.002
0.003,0.014,-0.002
0.003,0.013,-0.002
0.004,0.013,-0.003
0.004,0.013,-0.003
0.004,0.012,-0.003
0.004,0.012,-0.003
0.004,0.012,-0.003
0.004,0.014,-0.003
0.004,0.015,-0.003
0.004,0.016,-0.003
0.004,0.017,-0.003
0.004,0.018,-0.003
0.004,0.018,-0.003
0.004,0.019,-0.003
0.004,0.019,-0.002
0.004,0.019,-0.002
0.004,0.019,-0.002
0.004,0.019,-0.002
0.003,0.019,-0.002
0.003,0.019,-0.002
0.003,0.019,-0.002
0.002,0.019,-0.002
0.002,0.019,-0.002
0.002,0.019,-0.002
0.002,0.019,-0.002
0.002,0.019,-0.002
0.002,0.019,-0.002
0.001,0.018,-0.003
0.001,0.017,-0.004
0.001,0.016,-0.005
0.0,0.016,-0.005
0.0,0.015,-0.006
0.0,0.015,-0.006
-0.0,0.015,-0.006
-0.0,0.014,-0.006
-0.0,0.014,-0.007
-0.0,0.014,-0.007
0.007,0.004,-0.006
0.014,-0.004,-0.006
0.019,-0.011,-0.006
0.022,-0.016,-0.006
0.026,-0.02,-0.006
0.028,-0.023,-0.005
0.03,-0.026,-0.005
0.032,-0.028,-0.005
0.033,-0.03,-0.005
0.034,-0.031,-0.005
0.011,-0.007,0.005
-0.008,0.012,0.014
-0.023,0.027,0.02
-0.035,0.039,0.026
-0.044,0.049,0.03
-0.052,0.057,0.033
-0.058,0.063,0.036
-0.063,0.068,0.038
-0.067,0.072,0.04
-0.07,0.075,0.042
-0.069,0.097,0.043
-0.068,0.114,0.044
-0.067,0.128,0.045
-0.067,0.139,0.046
-0.066,0.148,0.046
-0.066,0.155,0.047
-0.066,0.16,0.047
-0.065,0.165,0.047
-0.065,0.169,0.047
-0.065,0.172,0.048
-0.101,0.169,0.031
-0.13,0.167,0.017
-0.154,0.165,0.006
-0.172,0.164,-0.003
-0.187,0.163,-0.01
-0.199,0.162,-0.015
-0.209,0.161,-0.02
-0.216,0.16,-0.023
-0.222,0.16,-0.026
-0.227,0.16,-0.028
-0.222,0.157,-0.027
-0.217,0.155,-0.026
-0.214,0.153,-0.025
-0.211,0.151,-0.025
-0.209,0.15,-0.024
-0.207,0.149,-0.024
-0.206,0.149,-0.023
-0.205,0.148,-0.023
-0.204,0.148,-0.023
-0.203,0.147,-0.023
-0.175,0.136,-0.004
-0.152,0.127,0.011
-0.134,0.12,0.023
-0.119,0.114,0.033
-0.107,0.109,0.04
-0.098,0.106,0.047
-0.091,0.103,0.051
-0.085,0.1,0.055
-0.08,0.098,0.059
-0.076,0.097,0.061
-0.086,0.086,0.038
-0.095,0.077,0.019
-0.101,0.07,0.005
-0.106,0.065,-0.007
-0.111,0.06,-0.017
-0.114,0.057,-0.024
-0.117,0.054,-0.03
-0.119,0.052,-0.035
-0.12,0.05,-0.039
-0.122,0.048,-0.042
-0.117,0.05,-0.041
-0.113,0.051,-0.039
-0.11,0.052,-0.038
-0.107,0.052,-0.038
-0.105,0.053,-0.037
-0.104,0.053,-0.037
-0.102,0.054,-0.036
-0.101,0.054,-0.036
-0.101,0.054,-0.036
-0.1,0.054,-0.035
-0.098,0.044,-0.025
-0.096,0.035,-0.017
-0.095,0.028,-0.01
-0.094,0.023,-0.005
-0.094,0.019,-0.0
-0.093,0.015,0.003
-0.092,0.012,0.006
-0.092,0.01,0.008
-0.092,0.008,0.01
-0.091,0.007,0.011
-0.092,0.02,0.003
-0.092,0.03,-0.003
-0.092,0.039,-0.008
-0.092,0.045,-0.012
-0.093,0.051,-0.015
-0.093,0.055,-0.017
-0.093,0.058,-0.019
-0.093,0.061,-0.021
-0.093,0.063,-0.022
-0.093,0.065,-0.023
-0.093,0.059,-0.013
-0.093,0.055,-0.005
-0.093,0.051,0.002
-0.093,0.048,0.007
-0.093,0.045,0.012
-0.093,0.044,0.015
-0.093,0.042,0.018
-0.093,0.041,0.02
-0.093,0.04,0.022
-0.093,0.039,0.023
-0.086,0.037,0.012
-0.081,0.036,0.004
-0.077,0.035,-0.003
-0.074,0.035,-0.008
-0.071,0.034,-0.013
-0.069,0.033,-0.016
-0.067,0.033,-0.019
-0.066,0.033,-0.021
-0.065,0.032,-0.023
-0.064,0.032,-0.024
-0.057,0.033,-0.01
-0.052,0.033,0.001
-0.048,0.034,0.01
-0.044,0.034,0.018
-0.042,0.034,0.024
-0.039,0.034,0.028
-0.038,0.035,0.032
-0.036,0.035,0.035
-0.035,0.035,0.037
-0.034,0.035,0.039
-0.019,0.024,0.033
-0.006,0.016,0.027
0.003,0.009,0.023
0.011,0.004,0.019
0.018,-0.0,0.017
0.023,-0.004,0.014
0.027,-0.007,0.013
0.03,-0.009,0.011
0.033,-0.011,0.01
0.035,-0.012,0.009
0.035,0.002,-0.002
0.035,0.012,-0.01
0.035,0.021,-0.017
0.035,0.028,-0.023
0.035,0.033,-0.028
0.035,0.038,-0.031
0.035,0.041,-0.034
0.035,0.044,-0.036
0.035,0.047,-0.038
0.035,0.048,-0.04
0.035,0.049,-0.035
0.035,0.05,-0.032
0.035,0.05,-0.029
0.035,0.051,-0.027
0.034,0.051,-0.025
0.034,0.051,-0.024
0.034,0.051,-0.023
0.034,0.052,-0.022
0.034,0.052,-0.021
0.034,0.052,-0.021
0.036,0.065,-0.019
0.038,0.076,-0.018
0.04,0.085,-0.017
0.041,0.092,-0.016
0.042,0.098,-0.016
0.043,0.102,-0.015
0.044,0.106,-0.015
0.044,0.108,-0.014
0.045,0.111,-0.014
0.045,0.113,-0.014
0.052,0.105,-0.018
0.058,0.099,-0.021
0.063,0.094,-0.023
0.066,0.09,-0.025
0.069,0.087,-0.027
0.072,0.085,-0.028
0.074,0.083,-0.029
0.075,0.081,-0.03
0.076,0.08,-0.03
0.077,0.079,-0.031
0.074,0.066,-0.026
0.072,0.056,-0.022
0.07,0.048,-0.019
0.069,0.041,-0.016
0.067,0.036,-0.014
0.066,0.032,-0.012
0.066,0.029,-0.011
0.065,0.026,-0.01
0.064,0.024,-0.009
0.064,0.022,-0.009
0.061,0.001,-0.01
0.058,-0.016,-0.012
0.056,-0.029,-0.013
0.054,-0.04,-0.014
0.053,-0.049,-0.014
0.052,-0.055,-0.015
0.051,-0.061,-0.015
0.05,-0.065,-0.016
0.05,-0.069,-0.016
0.049,-0.072,-0.016
0.037,-0.081,-0.016
0.027,-0.088,-0.016
0.019,-0.094,-0.015
0.013,-0.099,-0.015
0.007,-0.103,-0.015
0.003,-0.106,-0.015
0.0,-0.108,-0.015
-0.003,-0.11,-0.015
-0.005,-0.112,-0.015
-0.006,-0.113,-0.015
-0.015,-0.112,-0.008
-0.022,-0.111,-0.003
-0.028,-0.11,0.001
-0.032,-0.11,0.004
-0.036,-0.109,0.006
-0.039,-0.109,0.008
-0.041,-0.109,0.01
-0.043,-0.109,0.011
-0.044,-0.108,0.012
-0.045,-0.108,0.013
-0.043,-0.085,0.014
-0.042,-0.067,0.015
-0.041,-0.052,0.015
-0.04,-0.041,0.015
-0.039,-0.031,0.016
-0.038,-0.024,0.016
-0.038,-0.018,0.016
-0.037,-0.013,0.016
-0.037,-0.009,0.016
-0.037,-0.006,0.016
-0.029,-0.0,0.018
-0.024,0.004,0.02
-0.019,0.008,0.022
-0.015,0.01,0.023
-0.013,0.013,0.024
-0.01,0.014,0.024
-0.008,0.016,0.025
-0.007,0.017,0.025
-0.006,0.018,0.026
-0.005,0.019,0.026
0.01,0.015,0.016
0.021,0.012,0.008
0.03,0.01,0.002
0.038,0.008,-0.003
0.044,0.007,-0.007
0.048,0.006,-0.01
0.052,0.005,-0.012
0.055,0.004,-0.014
0.057,0.004,-0.016
0.059,0.003,-0.017
0.06,0.006,-0.014
0.06,0.008,-0.012
0.061,0.009,-0.01
0.061,0.011,-0.008
0.061,0.012,-0.007
0.062,0.013,-0.006
0.062,0.013,-0.005
0.062,0.014,-0.005
0.062,0.014,-0.004
0.062,0.015,-0.004
0.052,0.002,-0.003
0.044,-0.009,-0.003
0.038,-0.017,-0.003
0.033,-0.024,-0.003
0.029,-0.029,-0.002
0.026,-0.033,-0.002
0.023,-0.037,-0.002
0.021,-0.04,-0.002
0.02,-0.042,-0.002
0.018,-0.044,-0.002
0.017,-0.063,-0.001
0.016,-0.079,-0.0
0.015,-0.091,0.0
0.014,-0.101,0.001
0.013,-0.109,0.001
0.013,-0.116,0.001
0.012,-0.121,0.001
0.012,-0.125,0.002
0.012,-0.128,0.002
0.011,-0.131,0.002
0.01,-0.129,-0.001
0.009,-0.128,-0.003
0.008,-0.127,-0.005
0.008,-0.126,-0.006
0.007,-0.126,-0.007
0.007,-0.125,-0.008
0.006,-0.125,-0.009
0.006,-0.124,-0.009
0.006,-0.124,-0.01
0.006,-0.124,-0.01
0.005,-0.123,-0.006
0.004,-0.122,-0.003
0.003,-0.121,-0.001
0.003,-0.121,0.001
0.002,-0.12,0.002
0.002,-0.12,0.004
0.002,-0.12,0.005
0.001,-0.12,0.005
0.001,-0.119,0.006
0.001,-0.119,0.007
-0.015,-0.113,0.013
-0.027,-0.108,0.019
-0.037,-0.104,0.023
-0.045,-0.1,0.026
-0.051,-0.098,0.029
-0.056,-0.096,0.031
-0.06,-0.094,0.033
-0.064,-0.093,0.034
-0.066,-0.091,0.035
-0.068,-0.091,0.036
-0.062,-0.08,0.031
-0.058,-0.071,0.027
-0.054,-0.064,0.024
-0.051,-0.058,0.022
-0.048,-0.054,0.019
-0.046,-0.05,0.018
-0.045,-0.047,0.017
-0.043,-0.045,0.015
-0.042,-0.043,0.015
-0.041,-0.042,0.014
-0.029,-0.038,0.01
-0.019,-0.035,0.006
-0.011,-0.033,0.003
-0.004,-0.031,0.001
0.001,-0.03,-0.001
0.005,-0.029,-0.002
0.009,-0.028,-0.004
0.011,-0.027,-0.005
0.013,-0.027,-0.005
0.015,-0.026,-0.006
0.022,-0.019,-0.005
0.027,-0.013,-0.004
0.031,-0.008,-0.003
0.034,-0.005,-0.003
0.037,-0.002,-0.003
0.039,0.001,-0.002
0.041,0.003,-0.002
0.042,0.004,-0.002
0.043,0.006,-0.002
0.044,0.007,-0.001
0.045,-0.008,0.0
0.045,-0.019,0.001
0.046,-0.028,0.002
0.046,-0.035,0.003
0.046,-0.041,0.004
0.046,-0.045,0.004
0.046,-0.049,0.005
0.047,-0.052,0.005
0.047,-0.054,0.005
0.047,-0.056,0.005
0.051,-0.056,0.007
0.054,-0.056,0.009
0.057,-0.056,0.011
0.059,-0.056,0.012
0.061,-0.057,0.012
0.062,-0.057,0.013
0.063,-0.057,0.014
0.064,-0.057,0.014
0.065,-0.057,0.015
0.065,-0.057,0.015
0.056,-0.063,0.011
0.049,-0.068,0.008
0.043,-0.072,0.005
0.039,-0.076,0.004
0.035,-0.078,0.002
0.032,-0.08,0.001
0.03,-0.082,-0.0
0.028,-0.083,-0.001
0.027,-0.084,-0.002
0.025,-0.085,-0.002
0.021,-0.085,-0.004
0.017,-0.086,-0.006
0.014,-0.086,-0.007
0.011,-0.086,-0.008
0.009,-0.086,-0.009
0.008,-0.086,-0.009
0.007,-0.086,-0.01
0.006,-0.086,-0.01
0.005,-0.086,-0.01
0.004,-0.086,-0.011
0.004,-0.089,-0.018
0.003,-0.092,-0.023
0.003,-0.094,-0.028
0.002,-0.095,-0.032
0.002,-0.097,-0.035
0.002,-0.098,-0.037
0.002,-0.099,-0.039
0.001,-0.099,-0.04
0.001,-0.1,-0.042
0.001,-0.1,-0.042
-0.004,-0.107,-0.009
-0.007,-0.112,0.018
-0.01,-0.116,0.039
-0.013,-0.12,0.057
-0.015,-0.122,0.07
-0.016,-0.124,0.081
-0.018,-0.126,0.09
-0.019,-0.128,0.097
-0.02,-0.129,0.103
-0.02,-0.13,0.107
-0.007,-0.116,0.073
0.003,-0.105,0.045
0.011,-0.096,0.023
0.018,-0.089,0.005
0.023,-0.084,-0.009
0.027,-0.079,-0.021
0.031,-0.076,-0.03
0.034,-0.073,-0.037
0.036,-0.071,-0.043
0.037,-0.069,-0.047
0.04,-0.067,-0.071
0.042,-0.065,-0.09
0.043,-0.064,-0.106
0.045,-0.062,-0.118
0.046,-0.061,-0.128
0.046,-0.061,-0.136
0.047,-0.06,-0.142
0.047,-0.06,-0.147
0.048,-0.059,-0.151
0.048,-0.059,-0.154
0.036,-0.062,-0.051
0.026,-0.063,0.032
0.018,-0.065,0.098
0.012,-0.066,0.151
0.007,-0.067,0.194
0.002,-0.068,0.228
-0.001,-0.069,0.255
-0.003,-0.069,0.277
-0.005,-0.07,0.294
-0.007,-0.07,0.308
-0.003,-0.077,0.277
0.001,-0.082,0.253
0.004,-0.086,0.233
0.006,-0.09,0.218
0.008,-0.092,0.205
0.009,-0.095,0.195
0.011,-0.096,0.187
0.012,-0.098,0.181
0.012,-0.099,0.175
0.013,-0.1,0.171
0.026,-0.087,0.113
0.037,-0.077,0.067
0.045,-0.069,0.03
0.052,-0.062,0.0
0.057,-0.057,-0.023
0.062,-0.053,-0.042
0.065,-0.049,-0.058
0.068,-0.047,-0.07
0.07,-0.045,-0.079
0.058,-0.044,-0.074
0.049,-0.044,-0.069
0.042,-0.044,-0.065
0.036,-0.044,-0.062
0.031,-0.043,-0.06
0.027,-0.043,-0.058
0.024,-0.043,-0.057
0.022,-0.043,-0.055
0.02,-0.043,-0.054
0.018,-0.043,-0.054
0.015,-0.048,-0.058
0.013,-0.051,-0.061
0.011,-0.054,-0.064
0.009,-0.057,-0.066
0.008,-0.059,-0.068
0.007,-0.06,-0.07
0.006,-0.062,-0.071
0.006,-0.062,-0.072
0.005,-0.063,-0.072
0.005,-0.064,-0.073
-0.003,-0.075,-0.071
-0.009,-0.083,-0.069
-0.014,-0.09,-0.068
-0.018,-0.096,-0.067
-0.021,-0.1,-0.066
-0.024,-0.103,-0.066
-0.026,-0.106,-0.065
-0.027,-0.108,-0.065
-0.029,-0.11,-0.064
-0.03,-0.112,-0.064
-0.019,-0.097,-0.105
-0.01,-0.086,-0.137
-0.003,-0.077,-0.163
0.003,-0.069,-0.184
0.007,-0.064,-0.2
0.011,-0.059,-0.214
0.014,-0.055,-0.224
0.016,-0.052,-0.233
0.018,-0.05,-0.24
0.02,-0.048,-0.245
0.015,-0.048,-0.187
0.011,-0.048,-0.14
0.008,-0.048,-0.103
0.005,-0.048,-0.073
0.003,-0.048,-0.05
0.001,-0.048,-0.031
0.0,-0.048,-0.015
-0.001,-0.048,-0.003
-0.002,-0.048,0.007
-0.003,-0.048,0.014
0.008,-0.055,0.019
0.016,-0.061,0.023
0.022,-0.066,0.026
0.027,-0.07,0.029
0.031,-0.073,0.031
0.035,-0.075,0.032
0.037,-0.077,0.034
0.04,-0.079,0.035
0.041,-0.08,0.036
0.043,-0.081,0.036
0.047,-0.083,0.036
0.05,-0.084,0.036
0.053,-0.085,0.035
0.055,-0.086,0.035
0.056,-0.086,0.035
0.058,-0.087,0.035
0.059,-0.087,0.035
0.06,-0.087,0.035
0.06,-0.088,0.035
0.061,-0.088,0.035
0.049,-0.089,0.17
0.04,-0.089,0.279
0.032,-0.09,0.365
0.026,-0.09,0.435
0.021,-0.09,0.49
0.017,-0.09,0.534
0.014,-0.091,0.57
0.012,-0.091,0.598
0.01,-0.091,0.621
0.008,-0.091,0.639
-0.001,-0.073,0.551
-0.008,-0.058,0.48
-0.014,-0.046,0.423
-0.019,-0.037,0.377
-0.022,-0.029,0.341
-0.025,-0.023,0.312
-0.028,-0.018,0.289
-0.03,-0.014,0.27
-0.031,-0.011,0.255
-0.033,-0.009,0.243
-0.014,0.003,0.199
0.001,0.013,0.164
0.013,0.02,0.136
0.023,0.027,0.113
0.03,0.031,0.095
0.037,0.035,0.08
0.042,0.038,0.069
0.045,0.041,0.06
0.049,0.043,0.052
0.051,0.045,0.046
0.046,0.041,-0.029
0.043,0.039,-0.089
0.039,0.037,-0.137
0.037,0.035,-0.175
0.035,0.034,-0.206
0.034,0.033,-0.23
0.032,0.032,-0.25
0.031,0.031,-0.266
0.03,0.03,-0.278
0.03,0.03,-0.288
0.017,0.003,-0.286
0.006,-0.019,-0.284
-0.002,-0.036,-0.283
-0.009,-0.05,-0.281
-0.014,-0.061,-0.28
-0.019,-0.07,-0.28
-0.022,-0.077,-0.279
-0.025,-0.082,-0.279
-0.027,-0.087,-0.278
-0.029,-0.091,-0.278
-0.027,-0.048,-0.254
-0.026,-0.015,-0.235
-0.026,0.012,-0.219
-0.025,0.034,-0.207
-0.025,0.051,-0.197
-0.024,0.065,-0.189
-0.024,0.076,-0.183
-0.024,0.085,-0.178
-0.023,0.092,-0.174
-0.023,0.098,-0.171
-0.023,0.092,-0.153
-0.024,0.088,-0.139
-0.024,0.085,-0.128
-0.024,0.082,-0.119
-0.024,0.08,-0.112
-0.024,0.078,-0.107
-0.024,0.077,-0.102
-0.024,0.076,-0.098
-0.024,0.075,-0.096
-0.024,0.074,-0.093
-0.026,0.057,-0.093
-0.027,0.043,-0.093
-0.028,0.032,-0.093
-0.029,0.024,-0.093
-0.029,0.016,-0.094
-0.03,0.011,-0.094
-0.03,0.006,-0.094
-0.031,0.003,-0.094
-0.031,-0.0,-0.094
-0.031,-0.003,-0.094
-0.043,-0.002,-0.12
-0.052,-0.002,-0.141
-0.06,-0.002,-0.158
-0.066,-0.001,-0.172
-0.07,-0.001,-0.183
-0.074,-0.001,-0.192
-0.077,-0.001,-0.199
-0.08,-0.001,-0.204
-0.082,-0.001,-0.209
-0.083,-0.001,-0.212
-0.08,0.018,-0.183
-0.077,0.034,-0.16
-0.075,0.046,-0.141
-0.073,0.056,-0.126
-0.072,0.064,-0.114
-0.071,0.07,-0.104
-0.07,0.075,-0.097
-0.069,0.079,-0.09
-0.069,0.082,-0.085
-0.068,0.085,-0.082
-0.064,0.072,-0.061
-0.06,0.062,-0.044
-0.057,0.054,-0.031
-0.055,0.047,-0.02
-0.053,0.042,-0.012
-0.052,0.037,-0.005
-0.051,0.034,0.001
-0.05,0.031,0.005
-0.049,0.029,0.009
-0.048,0.027,0.011
-0.005,0.022,0.029
0.03,0.017,0.043
0.058,0.014,0.054
0.08,0.011,0.063
0.098,0.009,0.07
0.113,0.007,0.075
0.124,0.005,0.08
0.133,0.004,0.084
0.141,0.003,0.087
0.146,0.002,0.089
0.128,-0.017,0.103
0.114,-0.032,0.114
0.102,-0.045,0.123
0.093,-0.055,0.13
0.085,-0.063,0.136
0.079,-0.069,0.14
0.075,-0.074,0.144
0.071,-0.078,0.147
0.068,-0.081,0.149
0.065,-0.084,0.151
0.055,-0.104,0.141
0.048,-0.119,0.132
0.041,-0.132,0.125
0.036,-0.142,0.12
0.032,-0.15,0.115
0.029,-0.156,0.112
0.026,-0.162,0.109
0.024,-0.166,0.107
0.023,-0.169,0.105
0.021,-0.172,0.103
0.022,-0.175,0.087
0.022,-0.178,0.074
0.023,-0.181,0.063
0.023,-0.183,0.054
0.024,-0.184,0.048
0.024,-0.186,0.042
0.024,-0.187,0.038
0.024,-0.187,0.034
0.024,-0.188,0.031
0.024,-0.188,0.029
0.018,-0.185,0.031
0.013,-0.183,0.032
0.009,-0.181,0.033
0.006,-0.18,0.034
0.003,-0.178,0.035
0.001,-0.177,0.035
-0.0,-0.177,0.036
-0.001,-0.176,0.036
-0.003,-0.175,0.037
-0.003,-0.175,0.037
-0.008,-0.159,0.029
-0.012,-0.146,0.022
-0.015,-0.136,0.017
-0.017,-0.128,0.013
-0.019,-0.122,0.009
-0.021,-0.116,0.007
-0.022,-0.112,0.004
-0.023,-0.109,0.003
-0.024,-0.106,0.001
-0.025,-0.104,0.0
-0.028,-0.109,0.007
-0.03,-0.114,0.013
-0.032,-0.117,0.017
-0.034,-0.12,0.021
-0.035,-0.122,0.024
-0.036,-0.124,0.026
-0.037,-0.125,0.028
-0.038,-0.126,0.03
-0.038,-0.127,0.031
-0.038,-0.128,0.032
-0.034,-0.128,0.025
-0.03,-0.128,0.02
-0.027,-0.129,0.016
-0.024,-0.129,0.013
-0.022,-0.129,0.01
-0.021,-0.129,0.008
-0.02,-0.129,0.006
-0.019,-0.129,0.005
-0.018,-0.129,0.004
-0.017,-0.129,0.003
-0.011,-0.141,-0.012
-0.006,-0.151,-0.024
-0.002,-0.158,-0.034
0.001,-0.164,-0.041
0.004,-0.169,-0.047
0.006,-0.173,-0.052
0.007,-0.176,-0.056
0.008,-0.179,-0.059
0.009,-0.181,-0.062
0.01,-0.182,-0.064
0.004,-0.18,-0.049
-0.002,-0.178,-0.037
-0.006,-0.176,-0.027
-0.009,-0.175,-0.019
-0.012,-0.174,-0.013
-0.014,-0.173,-0.008
-0.016,-0.172,-0.004
-0.017,-0.172,-0.001
-0.018,-0.171,0.002
-0.019,-0.171,0.004
-0.009,-0.168,-0.006
-0.002,-0.166,-0.013
0.005,-0.164,-0.019
0.01,-0.163,-0.023
0.014,-0.162,-0.027
0.017,-0.161,-0.03
0.019,-0.16,-0.033
0.021,-0.16,-0.034
0.023,-0.159,-0.036
0.024,-0.159,-0.037
0.032,-0.138,-0.021
0.039,-0.121,-0.008
0.044,-0.107,0.003
0.048,-0.096,0.011
0.051,-0.088,0.018
0.054,-0.081,0.024
0.056,-0.075,0.028
0.058,-0.071,0.031
0.059,-0.067,0.034
0.06,-0.065,0.036
0.07,-0.048,0.031
0.077,-0.035,0.026
0.083,-0.024,0.022
0.088,-0.016,0.02
0.092,-0.009,0.017
0.095,-0.003,0.015
0.097,0.001,0.014
0.099,0.004,0.013
0.101,0.007,0.012
0.102,0.009,0.011
0.107,0.026,-0.0
0.111,0.038,-0.009
0.115,0.049,-0.016
0.117,0.057,-0.022
0.119,0.064,-0.026
0.121,0.069,-0.03
0.122,0.073,-0.033
0.124,0.077,-0.035
0.124,0.079,-0.037
0.125,0.081,-0.038
0.132,0.081,-0.046
0.138,0.081,-0.052
0.142,0.081,-0.056
0.146,0.081,-0.06
0.148,0.081,-0.063
0.151,0.081,-0.066
0.153,0.081,-0.067
0.154,0.081,-0.069
0.155,0.081,-0.07
0.156,0.081,-0.071
0.14,0.069,-0.063
0.128,0.059,-0.057
0.118,0.051,-0.051
0.11,0.045,-0.047
0.103,0.04,-0.044
0.098,0.035,-0.041
0.094,0.032,-0.039
0.091,0.03,-0.037
0.088,0.028,-0.036
0.086,0.026,-0.035
0.073,-0.018,-0.024
0.063,-0.054,-0.014
0.055,-0.082,-0.007
0.048,-0.105,-0.001
0.043,-0.123,0.004
0.039,-0.137,0.007
0.035,-0.149,0.01
0.033,-0.158,0.013
0.03,-0.165,0.015
0.029,-0.171,0.016
0.023,-0.175,0.016
0.019,-0.177,0.016
0.016,-0.18,0.016
0.013,-0.181,0.016
0.011,-0.183,0.016
0.009,-0.184,0.016
0.008,-0.185,0.016
0.007,-0.185,0.016
0.006,-0.186,0.016
0.005,-0.186,0.016
0.01,-0.17,0.001
0.014,-0.156,-0.011
0.017,-0.146,-0.02
0.02,-0.137,-0.028
0.022,-0.13,-0.034
0.023,-0.125,-0.039
0.025,-0.12,-0.043
0.026,-0.117,-0.046
0.026,-0.114,-0.048
0.027,-0.112,-0.05
0.023,-0.116,-0.026
0.02,-0.12,-0.006
0.017,-0.122,0.01
0.015,-0.125,0.022
0.013,-0.127,0.032
0.012,-0.128,0.04
0.011,-0.129,0.047
0.01,-0.13,0.052
0.009,-0.131,0.056
0.009,-0.131,0.059
0.016,-0.11,0.043
0.021,-0.093,0.031
0.026,-0.079,0.021
0.029,-0.068,0.012
0.032,-0.059,0.006
0.034,-0.052,0.001
0.036,-0.046,-0.004
0.037,-0.042,-0.007
0.039,-0.038,-0.01
0.039,-0.035,-0.012
0.045,-0.036,-0.008
0.049,-0.038,-0.005
0.053,-0.038,-0.002
0.055,-0.039,-0.0
0.058,-0.04,0.001
0.059,-0.04,0.003
0.061,-0.041,0.004
0.062,-0.041,0.004
0.063,-0.041,0.005
0.064,-0.041,0.006
0.07,-0.052,-0.006
0.075,-0.06,-0.015
0.079,-0.066,-0.022
0.082,-0.072,-0.028
0.084,-0.076,-0.033
0.086,-0.079,-0.037
0.088,-0.082,-0.04
0.089,-0.084,-0.042
0.09,-0.086,-0.044
0.091,-0.087,-0.046
0.094,-0.085,-0.045
0.096,-0.082,-0.044
0.098,-0.081,-0.044
0.1,-0.079,-0.043
0.101,-0.078,-0.043
0.102,-0.077,-0.043
0.103,-0.077,-0.042
0.103,-0.076,-0.042
0.104,-0.076,-0.042
0.104,-0.075,-0.042
0.103,-0.078,-0.04
0.101,-0.081,-0.038
0.1,-0.082,-0.036
0.1,-0.084,-0.035
0.099,-0.085,-0.034
0.098,-0.086,-0.034
0.098,-0.087,-0.033
0.098,-0.087,-0.033
0.097,-0.088,-0.032
0.097,-0.088,-0.032
0.088,-0.099,0.009
0.08,-0.107,0.041
0.074,-0.114,0.068
0.069,-0.12,0.088
0.065,-0.124,0.105
0.062,-0.127,0.119
0.06,-0.13,0.129
0.058,-0.132,0.138
0.056,-0.134,0.145
0.055,-0.136,0.15
0.063,-0.119,0.082
0.069,-0.105,0.027
0.074,-0.094,-0.017
0.078,-0.085,-0.052
0.081,-0.078,-0.08
0.084,-0.073,-0.102
0.086,-0.068,-0.12
0.087,-0.064,-0.135
0.088,-0.062,-0.146
0.09,-0.059,-0.155
0.092,-0.038,-0.105
0.094,-0.021,-0.064
0.096,-0.007,-0.032
0.097,0.004,-0.006
0.098,0.013,0.015
0.099,0.02,0.031
0.1,0.026,0.045
0.1,0.03,0.055
0.101,0.034,0.064
0.101,0.037,0.071
0.055,0.019,0.057
0.017,0.005,0.046
-0.013,-0.006,0.037
-0.037,-0.015,0.03
-0.056,-0.022,0.025
-0.071,-0.028,0.02
-0.083,-0.032,0.017
-0.093,-0.036,0.014
-0.101,-0.039,0.012
-0.107,-0.041,0.01
-0.107,-0.038,0.001
-0.107,-0.035,-0.006
-0.107,-0.033,-0.011
-0.107,-0.031,-0.016
-0.107,-0.029,-0.019
-0.107,-0.028,-0.022
-0.107,-0.027,-0.025
-0.107,-0.027,-0.026
-0.107,-0.026,-0.028
-0.107,-0.026,-0.029
-0.102,-0.002,-0.038
-0.098,0.016,-0.044
-0.095,0.031,-0.05
-0.093,0.043,-0.054
-0.091,0.052,-0.058
-0.089,0.06,-0.061
-0.088,0.066,-0.063
-0.087,0.071,-0.065
-0.086,0.075,-0.066
-0.085,0.078,-0.067
-0.085,0.081,-0.074
-0.085,0.083,-0.079
-0.085,0.085,-0.083
-0.085,0.087,-0.086
-0.085,0.088,-0.089
-0.085,0.089,-0.091
-0.085,0.09,-0.093
-0.085,0.09,-0.094
-0.085,0.091,-0.095
-0.085,0.091,-0.096
-0.078,0.078,-0.081
-0.071,0.068,-0.068
-0.066,0.06,-0.058
-0.063,0.053,-0.05
-0.059,0.048,-0.044
-0.057,0.044,-0.039
-0.055,0.04,-0.035
-0.053,0.038,-0.032
-0.052,0.035,-0.029
-0.051,0.034,-0.027
-0.045,0.033,-0.024
-0.04,0.033,-0.022
-0.036,0.033,-0.02
-0.033,0.033,-0.019
-0.03,0.033,-0.018
-0.028,0.033,-0.017
-0.027,0.033,-0.016
-0.025,0.032,-0.015
-0.024,0.032,-0.015
-0.024,0.032,-0.015
-0.021,0.029,-0.013
-0.018,0.027,-0.011
-0.016,0.025,-0.01
-0.014,0.023,-0.009
-0.013,0.022,-0.008
-0.012,0.021,-0.008
-0.011,0.02,-0.007
-0.011,0.019,-0.007
-0.01,0.019,-0.006
-0.01,0.018,-0.006
-0.009,0.018,-0.008
-0.009,0.018,-0.009
-0.009,0.017,-0.011
-0.009,0.017,-0.012
-0.008,0.017,-0.012
-0.008,0.017,-0.013
-0.008,0.016,-0.013
-0.008,0.016,-0.014
-0.008,0.016,-0.014
-0.008,0.016,-0.014
-0.006,0.013,-0.014
-0.004,0.011,-0.014
-0.003,0.009,-0.014
-0.002,0.007,-0.014
-0.001,0.006,-0.014
-0.0,0.005,-0.014
0.0,0.004,-0.014
0.001,0.003,-0.014
0.001,0.003,-0.013
0.001,0.003,-0.013
0.003,0.002,-0.01
0.004,0.002,-0.007
0.004,0.002,-0.005
0.005,0.002,-0.003
0.006,0.002,-0.001
0.006,0.002,-0.0
0.006,0.001,0.001
0.007,0.001,0.001
0.007,0.001,0.002
0.007,0.001,0.003
0.008,0.001,0.001
0.009,0.0,-0.001
0.01,-0.0,-0.002
0.01,-0.001,-0.003
0.011,-0.001,-0.004
0.011,-0.001,-0.005
0.011,-0.001,-0.005
0.012,-0.002,-0.006
0.012,-0.002,-0.006
0.012,-0.002,-0.006
0.013,-0.001,-0.006
0.013,0.0,-0.005
0.014,0.001,-0.005
0.014,0.002,-0.005
0.015,0.002,-0.005
0.015,0.002,-0.004
0.015,0.003,-0.004
0.015,0.003,-0.004
0.015,0.003,-0.004
0.016,0.003,-0.004
0.016,0.004,-0.003
0.016,0.004,-0.003
0.016,0.004,-0.003
0.016,0.004,-0.002
0.016,0.005,-0.002
0.016,0.005,-0.002
0.016,0.005,-0.002
0.016,0.005,-0.002
0.016,0.005,-0.002
0.016,0.005,-0.001
0.015,0.005,-0.0
0.014,0.005,0.001
0.014,0.005,0.001
0.013,0.004,0.002
0.013,0.004,0.002
0.013,0.004,0.003
0.013,0.004,0.003
0.012,0.004,0.003
0.012,0.004,0.003
0.012,0.004,0.004
0.012,0.004,0.002
0.013,0.004,0.0
0.013,0.004,-0.001
0.013,0.004,-0.002
0.013,0.004,-0.003
0.013,0.004,-0.003
0.013,0.004,-0.004
0.014,0.004,-0.004
0.014,0.004,-0.005
0.014,0.004,-0.005
0.014,0.004,-0.004
0.015,0.004,-0.003
0.015,0.004,-0.003
0.015,0.004,-0.002
0.016,0.004,-0.002
0.016,0.003,-0.002
